Folder: Week4RepoReal

Note: README.md
# Week 4 R Package: Making an R Package

[![Twitter Follow](https://img.shields.io/twitter/follow/csulb?style=social)](https://twitter.com/csulb/with_replies)

Week 4: Making an R Package Using Week 2 Functions
1. Contact
2. Contributing
3. What is an R Package?
4. How to make an R Package for Beginners
5. My R Package
6. Installation
7. Roadmap
8. Helpful Resources

# Contact
If you want to connect with me, [email here](mailto:hannah@mooreplasticresearch.org)

# Contributing
Contributions of all kinds are greatly appreciated!
Contact [here](mailto:hannah@mooreplasticresearch.org) on how to get started

Remember to adhere to this project's [Code of Conduct](https://github.com/Cambalab/fake-data-generator/blob/master/.github/CODE_OF_CONDUCT.md)

# What is an R Package?
An R package is a collection of functions, data, and documentation that acts like a toolkit for users to perform tasks in R studio. They are created by developers and shared with the R community.

File: raman_hdpe.csv
"wavenumber","intensity"
150.92,3264.21
163.463,3418.66
175.988,3375.29
188.493,3388.36
200.983,3430.75
213.455,3463.18
225.907,3476.48
238.343,3452.98
250.762,3342.03
263.162,3354.89
275.544,3379.16
287.909,3420.14
300.258,3471.46
312.588,3416.15
324.9,3547.65
337.195,3591.92
349.472,3766.32
361.732,3842.41
373.975,3787.94
386.2,3717.66
398.408,3799.8
410.599,3765.81
422.773,3773.93
434.928,3814.7
447.067,3730.75
459.188,3703.46
471.292,3728
483.379,4201.9
495.448,3644.24
507.501,3653.01
519.536,3621.28
531.555,3671.57
543.557,3726.62
555.541,3703.67
567.508,3683.79
579.459,3729.83
591.393,3694.01
603.31,3725.23
615.209,3748.32
627.091,3665.55
638.957,3756.22
650.806,3754.2
662.639,3736.25
674.455,3754.32
686.253,3810.9
698.034,3740.78
709.8,3855.1
721.548,3894.65
733.281,3969.3
744.995,3877.25
756.694,3876.08
768.376,3956.42
780.042,3933.17
791.692,3940.04
803.324,4018.78
814.94,3984.75
826.54,4082.99
838.122,4039.33
849.69,4110.62
861.24,4168.75
872.773,4168.61
884.291,4158.38
895.793,4156.5
907.277,4149.62
918.747,4161.15
930.199,4124.66
941.635,4018.72
953.055,4066.72
964.461,4083.1
975.848,4075.94
987.22,4128.6
998.575,4167.49
1009.91,4195.68
1021.24,4178.74
1032.55,4280.16
1043.84,4390.87
1055.11,4988.05
1066.37,8896.85
1077.62,5141.34
1088.84,4969.94
1100.06,4734.25
1111.25,4613.36
1122.43,5228.33
1133.6,8653.49
1144.74,4812.58
1155.88,4414.83
1167,4717.06
1178.1,4860.99
1189.18,4316.6
1200.25,4343.21
1211.31,4284.87
1222.34,4345.17
1233.37,4329.46
1244.38,4352.33
1255.37,4358.12
1266.34,4633.41
1277.31,4722.72
1288.25,5271.36
1299.18,11323.1
1310.09,5720.17
1320.99,5010.53
1331.88,4686.74
1342.75,4452.15
1353.6,4489.75
1364.44,4595.51
1375.26,4881.58
1386.06,4466.42
1396.86,4405.78
1407.63,4546.19
1418.4,7210.9
1429.14,6118.29
1439.87,9476.78
1450.59,8510.2
1461.29,7819.6
1471.98,6887.81
1482.64,5277.77
1493.3,4765.08
1503.94,4548.29
1514.57,4494.3
1525.18,4559.84
1535.77,4485.72
1546.35,4451.56
1556.92,4544.85
1567.47,4504.51
1578,4458.71
1588.52,4403.55
1599.03,4420.86
1609.52,4491.46
1620,4455.89
1630.46,4392.87
1640.9,4471.13
1651.34,4465.97
1661.75,4490.6
1672.16,4484.04
1682.54,4442.74
1692.92,4449.58
1703.28,4432.35
1713.62,4453.37
1723.95,4414.41
1734.27,4463.29
1744.57,4414.69
1754.85,4456.95
1765.12,4515.53
1775.38,4565.34
1785.62,4428.16
1795.85,4472.48
1806.06,4496.12
1816.26,4414.74
1826.45,4417.08
1836.62,4426.78
1846.77,4416.92
1856.91,4423.56
1867.04,4362.08
1877.15,4450.22
1887.25,4393.92
1897.34,4406.73
1907.41,4408.88
1917.46,4428.04
1927.5,4345.13
1937.53,4392.21
1947.55,4422.37
1957.55,4463.09
1967.53,4378.03
1977.5,4449.46
1987.46,4360.16
1997.4,4349.33
2007.33,4380.97
2017.25,4401.78
2027.15,4395.92
2037.04,4385.66
2046.91,4380.55
2056.77,4346.29
2066.61,4337.32
2076.45,4412.13
2086.26,4359.85
2096.07,4392.29
2105.86,4383.29
2115.63,4364.17
2125.39,4436.17
2135.14,4394.83
2144.88,4334.17
2154.6,4320.91
2164.31,4331.1
2174,4392.43
2183.68,4509.69
2193.35,4463.2
2203,4326.21
2212.64,4280.81
2222.27,4254.67
2231.88,4296.89
2241.48,4205.56
2251.06,4250.8
2260.63,4179.94
2270.19,4193.99
2279.74,4201.99
2289.27,4218.91
2298.78,4152.76
2308.29,4180.63
2317.78,4150.83
2327.26,4116.43
2336.72,4120.4
2346.17,4116.92
2355.61,4139.57
2365.03,4105.69
2374.44,4074.17
2383.84,4099.93
2393.23,4115.02
2402.6,4143.36
2411.96,4175.21
2421.3,4286.39
2430.63,4548.49
2439.95,4772.09
2449.25,4477.12
2458.55,4253.34
2467.83,4163.95
2477.09,4168.45
2486.35,4092.52
2495.58,4059.72
2504.81,4057.58
2514.02,4064.78
2523.23,4076.44
2532.41,4023.74
2541.59,4079.02
2550.75,4047.05
2559.9,4031.15
2569.04,4065.52
2578.16,4075.31
2587.27,4206.24
2596.37,4257.18
2605.45,4299.17
2614.52,4331.82
2623.58,4283.71
2632.63,4283.22
2641.66,4332.86
2650.68,4423.32
2659.69,4477.75
2668.69,4379.71
2677.67,4436.91
2686.64,4490.84
2695.6,4673.72
2704.54,4977.89
2713.47,5562.59
2722.39,6098.09
2731.3,5862.7
2740.19,4967.94
2749.08,4561.44
2757.95,4380
2766.8,4320.21
2775.65,4312.34
2784.48,4363.04
2793.3,4363.7
2802.11,4424.72
2809.47,4587.13
2818.38,4870.18
2827.27,5869.27
2836.15,10035.8
2845.03,24083.3
2853.89,30169.5
2862.74,21585.8
2871.57,18532.1
2880.4,31989.9
2889.22,35937.3
2898.02,21630.9
2906.82,18187.2
2915.6,14340
2924.37,12831.3
2933.13,12081.7
2941.88,9578.88
2950.62,6344.02
2959.35,5076.34
2968.07,4455.67
2976.77,4274.31
2985.47,4176.24
2994.15,4075.13
2998.49,4059.37